Folder: mat2lab/unsorted data/Group 23b

Note: unsorted data/Group 23b/MEASRUEMENT.txt
Before						after
					L	X	W				L	X	W
PLA					44.40		6.08				45.82		5.98			
Aluminium				43.98		6.18				49.62		4.02
Steel					43.14		6.06				54.1		4.00
Wood parallel grain 			18.12		18.12			        6.11		22.16
Wood perpendicular grain		17.54		18.81				8.26		21.00

File: steel tensile.dat
Code:	WP 300.20
Tensile test

G.U.N.T. Gerätebau GmbH
Hanskampring 15 -17,
22885 Barsbüttel
Germany, Tel ++4940 / 67 08 54 -0
Date: 03.03.2023	Time: 12:58:46

Name:	steel
User Comment:

Data Start
s Distance	F Force	EPS Elongation	SIGMA Stress
mm	KN	%	N/mm^2
1.0755	0.1255	Inf	Inf	0.0000	0.0000	0.0000
1.0923	0.5973	Inf	Inf	0.0000	0.0000	0.0000
1.1396	1.3099	Inf	Inf	0.0000	0.0000	0.0000
1.1633	1.7858	Inf	Inf	0.0000	0.0000	0.0000
1.1641	2.0286	Inf	Inf	0.0000	0.0000	0.0000
1.1702	2.1286	Inf	Inf	0.0000	0.0000	0.0000
1.1717	2.4265	Inf	Inf	0.0000	0.0000	0.0000
1.1816	2.6281	Inf	Inf	0.0000	0.0000	0.0000
1.1992	3.1710	Inf	Inf	0.0000	0.0000	0.0000
1.2182	3.7769	Inf	Inf	0.0000	0.0000	0.0000
1.2419	4.7140	Inf	Inf	0.0000	0.0000	0.0000
1.2473	4.9174	Inf	Inf	0.0000	0.0000	0.0000
1.2556	5.7020	Inf	Inf	0.0000	0.0000	0.0000
1.2694	6.1644	Inf	Inf	0.0000	0.0000	0.0000
1.2885	7.1727	Inf	Inf	0.0000	0.0000	0.0000
1.3076	7.8288	Inf	Inf	0.0000	0.0000	0.0000
1.3182	8.2784	Inf	Inf	0.0000	0.0000	0.0000
1.3358	8.9293	Inf	Inf	0.0000	0.0000	0.0000
1.4007	8.6306	Inf	Inf	0.0000	0.0000	0.0000
1.5747	8.5673	Inf	Inf	0.0000	0.0000	0.0000
1.6518	8.1877	Inf	Inf	0.0000	0.0000	0.0000
1.6892	8.4328	Inf	Inf	0.0000	0.0000	0.0000
1.8671	8.3519	Inf	Inf	0.0000	0.0000	0.0000
1.9243	8.1473	Inf	Inf	0.0000	0.0000	0.0000
1.9861	8.4838	Inf	Inf	0.0000	0.0000	0.0000
2.1144	8.2676	Inf	Inf	0.0000	0.0000	0.0000
2.1922	8.4740	Inf	Inf	0.0000	0.0000	0.0000
2.2869	8.2672	Inf	Inf	0.0000	0.0000	0.0000
2.3052	8.2619	Inf	Inf	0.0000	0.0000	0.0000
2.3479	8.4590	Inf	Inf	0.0000	0.0000	0.0000
2.4136	8.6599	Inf	Inf	0.0000	0.0000	0.0000
2.4281	8.6606	Inf	Inf	0.0000	0.0000	0.0000
2.4647	8.8914	Inf	Inf	0.0000	0.0000	0.0000
2.5403	9.0952	Inf	Inf	0.0000	0.0000	0.0000
2.5846	9.0911	Inf	Inf	0.0000	0.0000	0.0000
2.6510	9.2923	Inf	Inf	0.0000	0.0000	0.0000
2.7785	9.4920	Inf	Inf	0.0000	0.0000	0.0000
2.8494	9.4669	Inf	Inf	0.0000	0.0000	0.0000
2.8876	9.6775	Inf	Inf	0.0000	0.0000	0.0000
3.0105	9.8772	Inf	Inf	0.0000	0.0000	0.0000
3.1884	9.9915	Inf	Inf	0.0000	0.0000	0.0000
3.2197	9.9833	Inf	Inf	0.0000	0.0000	0.0000
3.2403	9.9769	Inf	Inf	0.0000	0.0000	0.0000
3.2784	10.2058	Inf	Inf	0.0000	0.0000	0.0000
3.3158	10.2047	Inf	Inf	0.0000	0.0000	0.0000
3.4242	10.4067	Inf	Inf	0.0000	0.0000	0.0000
3.5219	10.4097	Inf	Inf	0.0000	0.0000	0.0000
3.6120	10.4078	Inf	Inf	0.0000	0.0000	0.0000
3.6540	10.6086	Inf	Inf	0.0000	0.0000	0.0000
3.7158	10.6094	Inf	Inf	0.0000	0.0000	0.0000
3.8471	10.7488	Inf	Inf	0.0000	0.0000	0.0000
3.8952	10.7439	Inf	Inf	0.0000	0.0000	0.0000
3.9188	10.7356	Inf	Inf	0.0000	0.0000	0.0000
4.0249	10.9061	Inf	Inf	0.0000	0.0000	0.0000
4.2249	11.0897	Inf	Inf	0.0000	0.0000	0.0000
4.2761	11.0867	Inf	Inf	0.0000	0.0000	0.0000
4.4585	11.2385	Inf	Inf	0.0000	0.0000	0.0000
4.5677	11.2374	Inf	Inf	0.0000	0.0000	0.0000
4.6234	11.2314	Inf	Inf	0.0000	0.0000	0.0000
4.6386	11.2265	Inf	Inf	0.0000	0.0000	0.0000
4.7157	11.4258	Inf	Inf	0.0000	0.0000	0.0000
4.8272	11.4176	Inf	Inf	0.0000	0.0000	0.0000
4.9852	11.4146	Inf	Inf	0.0000	0.0000	0.0000
5.0394	11.6154	Inf	Inf	0.0000	0.0000	0.0000
5.1379	11.6098	Inf	Inf	0.0000	0.0000	0.0000
5.3371	11.7488	Inf	Inf	0.0000	0.0000	0.0000
5.5142	11.6454	Inf	Inf	0.0000	0.0000	0.0000
5.5355	11.6413	Inf	Inf	0.0000	0.0000	0.0000
5.6638	11.8571	Inf	Inf	0.0000	0.0000	0.0000
5.6859	11.6461	Inf	Inf	0.0000	0.0000	0.0000
5.7126	11.8732	Inf	Inf	0.0000	0.0000	0.0000
5.8363	11.7971	Inf	Inf	0.0000	0.0000	0.0000
5.9569	11.7945	Inf	Inf	0.0000	0.0000	0.0000
6.0355	11.9942	Inf	Inf	0.0000	0.0000	0.0000
6.0561	11.7222	Inf	Inf	0.0000	0.0000	0.0000
6.0981	11.9275	Inf	Inf	0.0000	0.0000	0.0000
6.1302	11.9182	Inf	Inf	0.0000	0.0000	0.0000
6.2393	11.9219	Inf	Inf	0.0000	0.0000	0.0000
6.3843	11.9144	Inf	Inf	0.0000	0.0000	0.0000
6.4050	11.9137	Inf	Inf	0.0000	0.0000	0.0000
6.4645	11.9107	Inf	Inf	0.0000	0.0000	0.0000
6.5630	12.1123	Inf	Inf	0.0000	0.0000	0.0000
6.7629	12.1332	Inf	Inf	0.0000	0.0000	0.0000
6.7965	12.1212	Inf	Inf	0.0000	0.0000	0.0000
6.8461	12.0654	Inf	Inf	0.0000	0.0000	0.0000
6.9828	12.0617	Inf	Inf	0.0000	0.0000	0.0000
7.0286	12.0598	Inf	Inf	0.0000	0.0000	0.0000
7.1270	12.0546	Inf	Inf	0.0000	0.0000	0.0000
7.2469	12.0609	Inf	Inf	0.0000	0.0000	0.0000
7.2515	11.9583	Inf	Inf	0.0000	0.0000	0.0000
7.2805	12.1227	Inf	Inf	0.0000	0.0000	0.0000
7.3423	12.1205	Inf	Inf	0.0000	0.0000	0.0000
7.4461	12.1437	Inf	Inf	0.0000	0.0000	0.0000
7.4934	11.9369	Inf	Inf	0.0000	0.0000	0.0000
7.5194	12.1340	Inf	Inf	0.0000	0.0000	0.0000
7.5980	12.1347	Inf	Inf	0.0000	0.0000	0.0000
7.6507	11.9275	Inf	Inf	0.0000	0.0000	0.0000
7.6690	12.1715	Inf	Inf	0.0000	0.0000	0.0000
7.8110	12.1377	Inf	Inf	0.0000	0.0000	0.0000
7.8224	12.1359	Inf	Inf	0.0000	0.0000	0.0000
7.9575	12.2232	Inf	Inf	0.0000	0.0000	0.0000
7.9713	12.2183	Inf	Inf	0.0000	0.0000	0.0000
8.0819	12.2160	Inf	Inf	0.0000	0.0000	0.0000
8.2247	12.2044	Inf	Inf	0.0000	0.0000	0.0000
8.3392	12.1981	Inf	Inf	0.0000	0.0000	0.0000
8.4216	12.1898	Inf	Inf	0.0000	0.0000	0.0000
8.4544	12.1546	Inf	Inf	0.0000	0.0000	0.0000
8.5682	12.1670	Inf	Inf	0.0000	0.0000	0.0000
8.6216	12.1647	Inf	Inf	0.0000	0.0000	0.0000
8.7483	12.2404	Inf	Inf	0.0000	0.0000	0.0000
8.8262	12.1392	Inf	Inf	0.0000	0.0000	0.0000
8.8689	12.2670	Inf	Inf	0.0000	0.0000	0.0000
8.9231	12.0591	Inf	Inf	0.0000	0.0000	0.0000
8.9949	12.2606	Inf	Inf	0.0000	0.0000	0.0000
9.1613	12.2554	Inf	Inf	0.0000	0.0000	0.0000
9.2361	12.2524	Inf	Inf	0.0000	0.0000	0.0000
9.4315	12.2857	Inf	Inf	0.0000	0.0000	0.0000
9.5284	12.0096	Inf	Inf	0.0000	0.0000	0.0000
9.5445	12.1145	Inf	Inf	0.0000	0.0000	0.0000
9.6574	12.3382	Inf	Inf	0.0000	0.0000	0.0000
9.8192	12.3374	Inf	Inf	0.0000	0.0000	0.0000
9.8750	12.3329	Inf	Inf	0.0000	0.0000	0.0000
10.0704	12.2217	Inf	Inf	0.0000	0.0000	0.0000
10.0788	11.9998	Inf	Inf	0.0000	0.0000	0.0000
10.0887	12.1996	Inf	Inf	0.0000	0.0000	0.0000
10.2124	12.2209	Inf	Inf	0.0000	0.0000	0.0000
10.2788	12.1546	Inf	Inf	0.0000	0.0000	0.0000
10.3597	12.1460	Inf	Inf	0.0000	0.0000	0.0000
10.3665	12.1482	Inf	Inf	0.0000	0.0000	0.0000
10.4284	12.2138	Inf	Inf	0.0000	0.0000	0.0000
10.6291	12.2775	Inf	Inf	0.0000	0.0000	0.0000
10.8283	12.1760	Inf	Inf	0.0000	0.0000	0.0000
10.8589	12.1640	Inf	Inf	0.0000	0.0000	0.0000
10.8879	12.1198	Inf	Inf	0.0000	0.0000	0.0000
11.0192	12.3356	Inf	Inf	0.0000	0.0000	0.0000
11.1001	12.1130	Inf	Inf	0.0000	0.0000	0.0000
11.2069	12.1074	Inf	Inf	0.0000	0.0000	0.0000
11.2207	12.1063	Inf	Inf	0.0000	0.0000	0.0000
11.2955	12.0740	Inf	Inf	0.0000	0.0000	0.0000
11.4123	12.2269	Inf	Inf	0.0000	0.0000	0.0000
11.5275	12.1074	Inf	Inf	0.0000	0.0000	0.0000
11.6314	11.9980	Inf	Inf	0.0000	0.0000	0.0000
11.6512	12.0017	Inf	Inf	0.0000	0.0000	0.0000
11.7894	11.9987	Inf	Inf	0.0000	0.0000	0.0000
11.9886	12.0298	Inf	Inf	0.0000	0.0000	0.0000
12.1886	11.8859	Inf	Inf	0.0000	0.0000	0.0000
12.3557	11.7140	Inf	Inf	0.0000	0.0000	0.0000
12.3847	11.7196	Inf	Inf	0.0000	0.0000	0.0000
12.5168	11.7822	Inf	Inf	0.0000	0.0000	0.0000
12.6779	11.6244	Inf	Inf	0.0000	0.0000	0.0000
12.7221	11.4067	Inf	Inf	0.0000	0.0000	0.0000
12.7473	11.3932	Inf	Inf	0.0000	0.0000	0.0000
12.8534	11.3899	Inf	Inf	0.0000	0.0000	0.0000
13.0145	11.1894	Inf	Inf	0.0000	0.0000	0.0000
13.1351	10.9773	Inf	Inf	0.0000	0.0000	0.0000
13.1496	10.9177	Inf	Inf	0.0000	0.0000	0.0000
13.2503	10.7308	Inf	Inf	0.0000	0.0000	0.0000
13.3755	10.7634	Inf	Inf	0.0000	0.0000	0.0000
13.4679	10.5535	Inf	Inf	0.0000	0.0000	0.0000
13.5747	10.3422	Inf	Inf	0.0000	0.0000	0.0000
13.6083	10.2796	Inf	Inf	0.0000	0.0000	0.0000
13.7618	9.9027	Inf	Inf	0.0000	0.0000	0.0000
13.8686	9.6985	Inf	Inf	0.0000	0.0000	0.0000
13.9572	9.4939	Inf	Inf	0.0000	0.0000	0.0000
14.0610	9.2545	Inf	Inf	0.0000	0.0000	0.0000
14.1312	9.0469	Inf	Inf	0.0000	0.0000	0.0000
14.3258	8.2245	Inf	Inf	0.0000	0.0000	0.0000
14.7205	7.6748	Inf	Inf	0.0000	0.0000	0.0000
15.2349	7.1188	Inf	Inf	0.0000	0.0000	0.0000
Data End